Trial	Response	RT	Accuracy
0	1	951	0
1	0	150	1
2	0	885	0
3	-1	-1	-1
4	1	851	0
5	0	868	1
6	1	751	0
7	0	751	1
8	1	784	0
9	0	718	1
10	1	718	1
11	1	217	1
12	1	1002	0
13	1	901	1
14	1	885	0
15	0	885	0
16	1	634	1
17	1	701	1
18	1	1252	1
19	0	734	0
20	0	885	0
21	1	801	0
22	0	701	1
23	0	835	0
24	1	701	1
25	0	851	1
26	1	851	1
27	1	768	1
28	0	885	0
29	0	768	1
30	1	1001	0
31	0	818	1
32	0	734	1
33	0	784	1
34	0	684	1
35	0	668	1
36	0	701	0
37	1	701	1
38	0	768	0
39	1	668	0
40	-1	-1	-1
