Trial	Response	RT	Accuracy
0	1	7864	0
1	1	2087	1
2	1	1436	1
3	0	918	1
4	0	901	1
5	0	2538	0
6	1	1152	1
7	1	3489	0
8	0	6161	0
9	1	46971	1
10	1	955	0
11	1	1929	1
12	1	1085	0
13	1	4291	1
14	1	36652	1
15	0	1836	1
16	1	1185	1
17	0	2621	1
18	1	12423	1
19	0	2571	1
20	1	1335	0
21	1	768	0
22	0	1135	0
23	0	1552	0
24	1	1001	1
25	1	901	1
26	1	901	1
27	0	968	0
28	0	718	1
29	1	1035	1
30	1	1135	0
31	1	2037	0
32	1	651	1
33	1	33	1
34	1	133	0
35	1	0	1
36	1	250	0
37	1	16	1
38	1	233	1
39	1	667	1
