Trial	Response	RT	Accuracy
0	0	601	1
1	1	467	1
2	1	751	1
3	0	801	0
4	1	1068	1
5	0	651	1
6	1	768	1
7	1	768	1
8	0	651	1
9	1	851	0
10	0	601	0
11	0	784	1
12	1	601	1
13	0	467	0
14	1	600	1
15	0	634	0
16	1	668	0
17	0	601	1
18	1	601	1
19	1	667	1
20	1	601	0
21	0	3206	1
22	1	784	1
23	1	851	0
24	0	684	1
25	0	484	1
26	1	501	1
27	1	584	1
28	0	634	0
29	1	617	1
30	0	484	1
31	1	667	1
